File: Standard/data/total_nist.csv
,Unnamed: 0,composition,mat_id,F_kJ/mol,S _J/K/mol,e_kJ/mol,avg_ Atomic_Number,avg_ Atomic_Weight,avg_Period,avg_group,avg_families,avg_Mendeleev Number,avg_Atomic Radus,avg_ Covalent_Radius,avg_Zunger radii sum,avg_ionic radius,avg_crystal radius,avg_ Pauling_Electronegativity,avg_MB electonegativity,avg_Gordy electonegativity,avg_Mullinke EN,avg_Allred-Rockow electronegativity,avg_metallic valence,avg_number of valence electrons,avg_gilmor number of valence electron,avg_valence s,avg_valence p,avg_valence d,avg_outer shell electrons,avg_1st ionization potential (kJ/mol),avg_polarizability(A^3),avg_Melting point (K),avg_Boiling Point (K),avg_Density (g/mL),avg_specific heat (J/g K) ,avg_heat of fusion (kJ/mol) ,avg_heat of vaporization (kJ/mol) ,avg_thermal conductivity (W/(m K)) ,avg_heat atomization (kJ/mol),avg_Cohesive energy,avg_electron affinity (kJ/mol),diff_ Atomic_Number,diff_ Atomic_Weight,diff_Period,diff_group,diff_families,diff_Mendeleev Number,diff_Atomic Radus,diff_ Covalent_Radius,diff_Zunger radii sum,diff_ionic radius,diff_crystal radius,diff_ Pauling_Electronegativity,diff_MB electonegativity,diff_Gordy electonegativity,diff_Mullinke EN,diff_Allred-Rockow electronegativity,diff_metallic valence,diff_number of valence electrons,diff_gilmor number of valence electron,diff_valence s,diff_valence p,diff_valence d,diff_outer shell electrons,diff_1st ionization potential (kJ/mol),diff_polarizability(A^3),diff_Melting point (K),diff_Boiling Point (K),diff_Density (g/mL),diff_specific heat (J/g K) ,diff_heat of fusion (kJ/mol) ,diff_heat of vaporization (kJ/mol) ,diff_thermal conductivity (W/(m K)) ,diff_heat atomization (kJ/mol),diff_Cohesive energy,diff_electron affinity (kJ/mol),max_ Atomic_Number,max_ Atomic_Weight,max_Period,max_group,max_families,max_Mendeleev Number,max_Atomic Radus,max_ Covalent_Radius,max_Zunger radii sum,max_ionic radius,max_crystal radius,max_ Pauling_Electronegativity,max_MB electonegativity,max_Gordy electonegativity,max_Mullinke EN,max_Allred-Rockow electronegativity,max_metallic valence,max_number of valence electrons,max_gilmor number of valence electron,max_valence s,max_valence p,max_valence d,max_outer shell electrons,max_1st ionization potential (kJ/mol),max_polarizability(A^3),max_Melting point (K),max_Boiling Point (K),max_Density (g/mL),max_specific heat (J/g K) ,max_heat of fusion (kJ/mol) ,max_heat of vaporization (kJ/mol) ,max_thermal conductivity (W/(m K)) ,max_heat atomization (kJ/mol),max_Cohesive energy,max_electron affinity (kJ/mol),min_ Atomic_Number,min_ Atomic_Weight,min_Period,min_group,min_families,min_Mendeleev Number,min_Atomic Radus,min_ Covalent_Radius,min_Zunger radii sum,min_ionic radius,min_crystal radius,min_ Pauling_Electronegativity,min_MB electonegativity,min_Gordy electonegativity,min_Mullinke EN,min_Allred-Rockow electronegativity,min_metallic valence,min_number of valence electrons,min_gilmor number of valence electron,min_valence s,min_valence p,min_valence d,min_outer shell electrons,min_1st ionization potential (kJ/mol),min_polarizability(A^3),min_Melting point (K),min_Boiling Point (K),min_Density (g/mL),min_specific heat (J/g K) ,min_heat of fusion (kJ/mol) ,min_heat of vaporization (kJ/mol) ,min_thermal conductivity (W/(m K)) ,min_heat atomization (kJ/mol),min_Cohesive energy,min_electron affinity (kJ/mol),nsites
0,0,Al,g,-213.6528,193.775,18.877,13.0,26.9815,3.0,13.0,5.0,73.0,1.25,1.18,1.675,1.25,0.53,1.61,1.64,3.5237,3.23,1.613,3.0,3.0,3.0,2.0,1.0,0.0,3.0,578.0,8.3,933.15,2740.15,2.7,0.9,10.79,293.4,237.0,326.0,3.39,41.762,0,0.0,0,0,0,0,0.0,0.0,0.0,0.0,0.0,0.0,0.0,0.0,0.0,0.0,0.0,0,0,0,0,0,0,0,0.0,0.0,0.0,0.0,0.0,0.0,0.0,0.0,0,0.0,0.0,13,26.9815,3,13,5,73,1.25,1.18,1.675,1.25,0.53,1.61,1.64,3.5237,3.23,1.613,3.0,3,3,2,1,0,3,578,8.3,933.15,2740.15,2.7,0.9,10.79,293.4,237.0,326,3.39,41.762,13,26.9815,3,13,5,73,1.25,1.18,1.675,1.25,0.53,1.61,1.64,3.5237,3.23,1.613,3.0,3,3,2,1,0,3,578,8.3,933.15,2740.15,2.7,0.9,10.79,293.4,237.0,326,3.39,41.762,1
11,11,AlF,g,-284.7108,264.127,32.242,11.0,22.99,2.5,15.0,6.5,83.0,0.875,0.95,1.04,0.875,0.86,2.795,2.71,6.80455,6.82,2.903,1.5,5.0,5.0,2.0,3.0,0.0,5.0,1129.5,4.467,493.25,1412.6,1.35085,0.86,5.5226,148.3349,118.514,202.5,2.115,184.963,4,7.983136,1,4,3,20,0.75,0.46,1.27,0.75,0.66,2.37,2.14,6.5617,7.18,2.58,3.0,4,4,0,4,0,4,1103,7.666,879.8,2655.1,2.6983,0.08,10.5348,290.1302,236.9721,247,2.55,286.4029,13,26.9815,3,17,8,93,1.25,1.18,1.675,1.25,1.19,3.98,3.78,10.0854,10.41,4.193,3.0,7,7,2,5,0,7,1681,8.3,933.15,2740.15,2.7,0.9,10.79,293.4,237.0,326,3.39,328.1649,9,18.9984,2,13,5,73,0.5,0.72,0.405,0.5,0.53,1.61,1.64,3.5237,3.23,1.613,0.0,3,3,2,1,0,3,578,0.634,53.35,85.05,0.0017,0.82,0.2552,3.2698,0.0279,79,0.84,41.762,2
22,22,AlI,g,-325.8696,299.676,33.742,33.0,76.943,4.0,15.0,6.5,84.5,1.325,1.255,1.63,1.325,1.295,2.135,2.2,4.7278,4.995,1.986,1.5,5.0,5.0,2.0,3.0,5.0,5.0,793.0,6.65,659.9,1598.65,3.815,0.557,9.307,157.076,118.7245,216.5,2.25,168.458,40,99.9229,2,4,3,23,0.15,0.15,0.09,0.15,1.53,1.05,1.12,2.4082,3.53,0.746,3.0,4,4,0,4,10,4,430,3.3,546.5,2283.0,2.23,0.686,2.966,272.648,236.551,219,2.28,253.3911,53,126.904,5,17,8,96,1.4,1.33,1.675,1.4,2.06,2.66,2.76,5.9319,6.76,2.359,3.0,7,7,2,5,10,7,1008,8.3,933.15,2740.15,4.93,0.9,10.79,293.4,237.0,326,3.39,295.1531,13,26.9815,3,13,5,73,1.25,1.18,1.585,1.25,0.53,1.61,1.64,3.5237,3.23,1.613,0.0,3,3,2,1,0,3,578,5.0,386.65,457.15,2.7,0.214,7.824,20.752,0.449,107,1.11,41.762,2
33,33,Al2O,g,-346.2684,332.658,52.922,11.3333,23.3208,2.66667,14.0,5.66667,77.6667,1.03333,1.03,1.27167,1.03333,0.756667,2.22,2.2,5.13923,4.66667,2.27867,2.0,4.0,4.0,2.0,2.0,0.0,4.0,823.333,5.79767,640.35,1856.82,1.80048,0.906667,7.26753,196.737,158.009,300.333,3.13333,74.8333,5,10.9821,1,3,2,14,0.65,0.45,1.21,0.65,0.68,1.83,1.68,4.8466,4.31,1.997,3.0,3,3,0,3,0,3,736,7.507,878.4,2650.0,2.69857,0.02,10.56741,289.9901,236.973,77,0.77,99.214,13,26.9815,3,16,7,87,1.25,1.18,1.675,1.25,1.21,3.44,3.32,8.3703,7.54,3.61,3.0,6,6,2,4,0,6,1314,8.3,933.15,2740.15,2.7,0.92,10.79,293.4,237.0,326,3.39,140.976,8,15.9994,2,13,5,73,0.6,0.73,0.465,0.6,0.53,1.61,1.64,3.5237,3.23,1.613,0.0,3,3,2,1,0,3,578,0.793,54.75,90.15,0.00143,0.9,0.22259,3.4099,0.02674,249,2.62,41.762,3
44,44,BBr2Cl,g,-442.9932,427.274,69.735,23.0,51.5179,3.25,16.0,7.5,89.0,1.0375,1.0225,1.05125,1.0375,1.39,2.78,2.635,6.063875,6.9425,2.5725,0.75,6.0,6.0,2.0,4.0,0.0,6.0,1083.0,2.85,764.05,931.4,2.1458,0.6115,16.0005,132.694,6.813225,229.5,2.4125,256.1595,30,69.093,2,4,2,23,0.3,0.32,0.405,0.3,1.57,1.12,1.08,2.2495,4.01,0.818,3.0,4,4,0,4,0,4,450,0.9,2180.0,2584.6,3.11679,0.547,46.97,479.5,26.9911,461,4.59,321.586,35,79.904,4,17,8,95,1.15,1.14,1.2,1.15,1.82,3.16,2.98,6.8446,8.3,2.869,3.0,7,7,2,5,0,7,1251,3.1,2352.15,2823.15,3.12,1.02,50.2,489.7,27.0,573,5.81,348.575,5,10.811,2,13,6,72,0.85,0.82,0.795,0.85,0.25,2.04,1.9,4.5951,4.29,2.051,0.0,3,3,2,1,0,3,801,2.2,172.15,238.55,0.00321,0.473,3.23,10.2,0.0089,112,1.22,26.989,4
55,55,BCl3,g,-403.1556,392.926,68.355,14.0,29.2923,2.75,16.0,7.5,88.5,0.9625,0.9475,0.95625,0.9625,1.315,2.88,2.71,6.282225,7.2975,2.6645,0.75,6.0,6.0,2.0,4.0,0.0,6.0,1138.5,2.4,717.15,884.7,0.5874075,0.615,14.9725,130.075,6.756675,234.0,2.5025,268.1785,12,24.6417,1,4,2,22,0.15,0.17,0.215,0.15,1.42,1.12,1.08,2.2495,4.01,0.818,3.0,4,4,0,4,0,4,450,0.8,2180.0,2584.6,2.33679,0.54,46.97,479.5,26.9911,452,4.41,321.586,17,35.4527,3,17,8,94,1.0,0.99,1.01,1.0,1.67,3.16,2.98,6.8446,8.3,2.869,3.0,7,7,2,5,0,7,1251,3.0,2352.15,2823.15,2.34,1.02,50.2,489.7,27.0,573,5.81,348.575,5,10.811,2,13,6,72,0.85,0.82,0.795,0.85,0.25,2.04,1.9,4.5951,4.29,2.051,0.0,3,3,2,1,0,3,801,2.2,172.15,238.55,0.00321,0.48,3.23,10.2,0.0089,121,1.4,26.989,4
66,66,HBO2,g,-327.8508,317.682,53.368,5.5,10.9544,1.75,11.5,6.75,84.5,0.575,0.6625,0.74375,0.575,0.6925,2.78,2.66,7.128525,6.6375,2.89275,0.75,4.0,4.0,1.75,2.25,0.0,4.0,1185.25,1.3215,618.925,755.925,0.585732,4.291,12.676,124.242,6.808745,322.25,2.7625,95.4275,7,14.99146,1,15,1,20,0.6,0.45,0.785,0.6,1.11,1.4,1.42,3.7752,3.25,1.559,3.0,5,5,1,4,0,5,513,2.3,2338.1,2802.9,2.33993,13.384,50.14132,489.251,26.97326,355,5.81,113.987,8,15.9994,2,16,7,92,0.85,0.82,1.25,0.85,1.21,3.44,3.32,8.3703,7.54,3.61,3.0,6,6,2,4,0,6,1314,3.0,2352.15,2823.15,2.34,14.304,50.2,489.7,27.0,573,5.81,140.976,1,1.00794,1,1,6,72,0.25,0.37,0.465,0.25,0.1,2.04,1.9,4.5951,4.29,2.051,0.0,1,1,1,0,0,1,801,0.7,14.05,20.25,6.99e-05,0.92,0.05868,0.44936,0.02674,218,0.0,26.989,4
77,77,BN,g,-279.0624,257.526,29.969,6.0,12.40887,2.0,14.0,6.5,77.0,0.75,0.785,0.6675,0.75,0.275,2.54,2.375,5.73925,5.795,2.5585,3.0,4.0,4.0,2.0,2.0,0.0,4.0,1101.5,2.05,1207.7,1450.25,1.170625,1.03,25.2802,246.2464,13.51299,523.0,5.365,13.4595,2,3.19574,0,2,1,10,0.2,0.07,0.255,0.2,0.05,1.0,0.95,2.2883,3.01,1.015,0.0,2,2,0,2,0,2,601,1.9,2288.9,2745.8,2.33875,0.02,49.8396,486.9072,26.97402,100,0.89,27.059,7,14.00674,2,15,7,82,0.85,0.82,0.795,0.85,0.3,3.04,2.85,6.8834,7.3,3.066,3.0,5,5,2,3,0,5,1402,3.0,2352.15,2823.15,2.34,1.04,50.2,489.7,27.0,573,5.81,26.989,5,10.811,2,13,6,72,0.65,0.75,0.54,0.65,0.25,2.04,1.9,4.5951,4.29,2.051,3.0,3,3,2,1,0,3,801,1.1,63.25,77.35,0.00125,1.02,0.3604,2.7928,0.02598,473,4.92,-0.07,2
89,89,B3Cl3O3,g,-584.2176,621.4,161.462,10.0,20.7544,2.33333,15.3333,7.0,84.3333,0.816667,0.846667,0.756667,0.816667,1.04333,2.88,2.73333,6.60333,6.71,2.84333,1.0,5.33333,5.33333,2.0,3.33333,0.0,5.33333,1122.0,1.99767,859.683,1050.62,0.781547,0.806667,17.8842,167.77,9.01188,314.333,3.27667,172.18,12,24.6417,1,4,2,22,0.4,0.26,0.545,0.4,1.42,1.4,1.42,3.7752,4.01,1.559,3.0,4,4,0,4,0,4,513,2.207,2297.4,2733.0,2.33857,0.54,49.97741,486.2901,26.9911,452,4.41,321.586,17,35.4527,3,17,8,94,1.0,0.99,1.01,1.0,1.67,3.44,3.32,8.3703,8.3,3.61,3.0,7,7,2,5,0,7,1314,3.0,2352.15,2823.15,2.34,1.02,50.2,489.7,27.0,573,5.81,348.575,5,10.811,2,13,6,72,0.6,0.73,0.465,0.6,0.25,2.04,1.9,4.5951,4.29,2.051,0.0,3,3,2,1,0,3,801,0.793,54.75,90.15,0.00143,0.48,0.22259,3.4099,0.0089,121,1.4,26.989,9
100,100,BaBr2,g,-454.8396,422.549,52.219,42.0,99.045,4.66667,12.0,6.0,66.3333,1.48333,1.42,1.934,1.48333,1.71,2.27,2.24667,5.7619,5.86,2.08367,0.666667,5.33333,5.33333,2.0,3.33333,0.0,5.33333,927.667,15.3,510.017,859.017,3.24667,0.383333,6.10733,57.6253,6.21467,134.667,1.44667,221.009,21,57.423,2,15,6,86,1.0,0.84,2.202,1.0,0.33,2.07,1.75,1.938,5.19,1.804,2.0,5,5,0,5,0,5,637,36.6,732.2,1581.2,0.38,0.269,2.464,126.562,18.278,68,0.68,310.583,56,137.327,6,17,8,95,2.15,1.98,3.402,2.15,1.82,2.96,2.83,6.4079,7.59,2.685,2.0,7,7,2,5,0,7,1140,39.7,998.15,1913.15,3.5,0.473,7.75,142.0,18.4,180,1.9,324.537,35,79.904,4,2,2,9,1.15,1.14,1.2,1.15,1.49,0.89,1.08,4.4699,2.4,0.881,0.0,2,2,2,0,0,2,503,3.1,265.95,331.95,3.12,0.204,5.286,15.438,0.122,112,1.22,13.954,3
111,111,Be,g,-179.5164,165.219,18.746,4.0,9.01218,2.0,2.0,2.0,67.0,1.05,0.9,1.08,1.05,0.41,1.57,1.45,3.7942,4.9,1.576,2.0,2.0,2.0,2.0,0.0,0.0,2.0,899.0,5.6,1551.15,3243.15,1.85,1.82,12.2,292.4,200.0,324.0,3.32,-50.0,0,0.0,0,0,0,0,0.0,0.0,0.0,0.0,0.0,0.0,0.0,0.0,0.0,0.0,0.0,0,0,0,0,0,0,0,0.0,0.0,0.0,0.0,0.0,0.0,0.0,0.0,0,0.0,0.0,4,9.01218,2,2,2,67,1.05,0.9,1.08,1.05,0.41,1.57,1.45,3.7942,4.9,1.576,2.0,2,2,2,0,0,2,899,5.6,1551.15,3243.15,1.85,1.82,12.2,292.4,200.0,324,3.32,-50.0,4,9.01218,2,2,2,67,1.05,0.9,1.08,1.05,0.41,1.57,1.45,3.7942,4.9,1.576,2.0,2,2,2,0,0,2,899,5.6,1551.15,3243.15,1.85,1.82,12.2,292.4,200.0,324,3.32,-50.0,1
122,122,H2Be,g,-236.6268,230.088,39.48,2.0,3.67602,1.33333,1.33333,5.33333,83.6667,0.516667,0.546667,1.19333,0.516667,0.203333,1.99,1.88333,6.05033,6.42,2.05867,0.666667,1.33333,1.33333,1.33333,0.0,0.0,1.33333,1174.33,2.33333,526.417,1094.55,0.616713,10.1427,4.10579,97.76624,66.7877,253.333,1.10667,31.846,3,8.00424,1,1,5,25,0.8,0.53,0.17,0.8,0.31,0.63,0.65,3.3842,2.28,0.724,2.0,1,1,1,0,0,1,413,4.9,1537.1,3222.9,1.84993,12.484,12.14132,291.951,199.8185,106,3.32,122.769,4,9.01218,2,2,7,92,1.05,0.9,1.25,1.05,0.41,2.2,2.1,7.1784,7.18,2.3,2.0,2,2,2,0,0,2,1312,5.6,1551.15,3243.15,1.85,14.304,12.2,292.4,200.0,324,3.32,72.769,1,1.00794,1,1,2,67,0.25,0.37,1.08,0.25,0.1,1.57,1.45,3.7942,4.9,1.576,0.0,1,1,1,0,0,1,899,0.7,14.05,20.25,6.99e-05,1.82,0.05868,0.44936,0.1815,218,0.0,-50.0,3
133,133,Be2O2,g,-345.0504,339.696,62.585,6.0,12.50579,2.0,9.0,4.5,77.0,0.825,0.815,0.7725,0.825,0.81,2.505,2.385,6.08225,6.22,2.593,1.0,4.0,4.0,2.0,2.0,0.0,4.0,1106.5,3.1965,802.95,1666.65,0.925715,1.37,6.211295,147.905,100.013,286.5,2.97,45.488,4,6.98722,0,14,5,20,0.45,0.17,0.615,0.45,0.8,1.87,1.87,4.5761,2.64,2.034,2.0,4,4,0,4,0,4,415,4.807,1496.4,3153.0,1.84857,0.9,11.97741,288.9901,199.973,75,0.7,190.976,8,15.9994,2,16,7,87,1.05,0.9,1.08,1.05,1.21,3.44,3.32,8.3703,7.54,3.61,2.0,6,6,2,4,0,6,1314,5.6,1551.15,3243.15,1.85,1.82,12.2,292.4,200.0,324,3.32,140.976,4,9.01218,2,2,2,67,0.6,0.73,0.465,0.6,0.41,1.57,1.45,3.7942,4.9,1.576,0.0,2,2,2,0,0,2,899,0.793,54.75,90.15,0.00143,0.92,0.22259,3.4099,0.02674,249,2.62,-50.0,4
144,144,BrF5S,g,-501.1668,524.034,127.674,13.7143,29.566,2.42857,16.8571,7.85714,92.5714,0.664286,0.822857,0.617857,0.664286,1.17143,3.63429,3.48286,8.95439,9.40857,3.74843,0.285714,6.85714,6.85714,2.0,4.85714,0.0,6.85714,1506.43,1.31,131.236,210.721,0.742643,0.754714,1.18279,5.941,0.0757857,112.286,1.18143,309.396,26,60.9056,2,1,1,7,0.65,0.42,0.795,0.65,1.39,1.4,1.13,4.2396,4.19,1.604,2.0,1,1,0,1,0,1,681,2.466,332.6,632.8,3.1183,0.347,5.0308,12.1682,0.2411,200,2.01,127.7548,35,79.904,4,17,8,95,1.15,1.14,1.2,1.15,1.82,3.98,3.78,10.0854,10.41,4.193,2.0,7,7,2,5,0,7,1681,3.1,385.95,717.85,3.12,0.82,5.286,15.438,0.269,279,2.85,328.1649,9,18.9984,2,16,7,88,0.5,0.72,0.405,0.5,0.43,2.58,2.65,5.8458,6.22,2.589,0.0,6,6,2,4,0,6,1000,0.634,53.35,85.05,0.0017,0.473,0.2552,3.2698,0.0279,79,0.84,200.4101,7
158,158,BrNa,g,-318.0876,293.368,33.954,23.0,51.4469,3.5,9.0,4.5,48.5,1.475,1.34,1.925,1.475,1.49,1.945,1.86,4.47285,5.22,1.777,0.5,4.0,4.0,1.5,2.5,0.0,4.0,818.0,13.35,318.45,744.05,2.0455,0.8515,3.942,56.199,70.561,110.5,1.1665,188.702,24,56.9142,1,16,7,93,0.65,0.4,1.45,0.65,0.66,2.03,1.94,3.8701,4.74,1.816,1.0,6,6,1,5,0,6,644,20.5,105.0,824.2,2.149,0.757,2.688,81.522,140.878,3,0.107,271.67,35,79.904,4,17,8,95,1.8,1.54,2.65,1.8,1.82,2.96,2.83,6.4079,7.59,2.685,1.0,7,7,2,5,0,7,1140,23.6,370.95,1156.15,3.12,1.23,5.286,96.96,141.0,112,1.22,324.537,11,22.9898,3,1,1,2,1.15,1.14,1.2,1.15,1.16,0.93,0.89,2.5378,2.85,0.869,0.0,1,1,1,0,0,1,496,3.1,265.95,331.95,0.971,0.473,2.598,15.438,0.122,109,1.113,52.867,2
171,171,H2Br2Si,g,-433.0176,426.389,78.649,17.2,37.9819,2.6,10.0,7.2,90.4,0.78,0.826,1.264,0.78,0.848,2.444,2.368,6.27156,6.862,2.3772,0.8,4.0,4.0,1.6,2.4,0.0,4.0,1138.2,2.6,448.63,666.51,1.71403,6.0528,12.2479,83.1989,29.7214,222.4,1.414,185.736,34,78.89606,3,16,2,17,0.9,0.77,0.22,0.9,1.72,1.06,0.85,2.9932,2.82,0.769,4.0,6,6,1,5,0,6,525,4.7,1669.1,2607.9,3.11993,13.831,50.49132,383.771,147.878,340,4.63,251.768,35,79.904,4,17,8,95,1.15,1.14,1.42,1.15,1.82,2.96,2.83,7.1784,7.59,2.685,4.0,7,7,2,5,0,7,1312,5.4,1683.15,2628.15,3.12,14.304,50.55,384.22,148.0,452,4.63,324.537,1,1.00794,1,1,6,78,0.25,0.37,1.2,0.25,0.1,1.9,1.98,4.1852,4.77,1.916,0.0,1,1,1,0,0,1,787,0.7,14.05,20.25,6.99e-05,0.473,0.05868,0.44936,0.122,112,0.0,72.769,5
187,187,Br2Zr,g,-427.518,402.838,55.888,36.6667,83.6773,4.33333,12.6667,6.66667,78.0,1.28333,1.24333,1.74167,1.28333,1.5,2.41667,2.45333,5.42263,6.27333,2.23,1.33333,6.0,5.33333,2.0,3.33333,0.666667,5.33333,973.333,8.03333,885.683,1771.35,4.25,0.405333,9.15733,29.692,7.648,277.667,2.89667,230.295,5,11.32,1,13,4,51,0.4,0.31,1.625,0.4,0.96,1.63,1.13,2.9558,3.95,1.365,4.0,3,5,0,5,2,5,500,14.8,1859.2,4318.2,3.39,0.203,11.614,42.762,22.578,497,5.03,282.727,40,91.224,5,17,8,95,1.55,1.45,2.825,1.55,1.82,2.96,2.83,6.4079,7.59,2.685,4.0,7,7,2,5,2,7,1140,17.9,2125.15,4650.15,6.51,0.473,16.9,58.2,22.7,609,6.25,324.537,35,79.904,4,4,4,44,1.15,1.14,1.2,1.15,0.86,1.33,1.7,3.4521,3.64,1.32,0.0,4,2,2,0,0,2,640,3.1,265.95,331.95,3.12,0.27,5.286,15.438,0.122,112,1.22,41.81,3
198,198,Br4Mo,g,-583.974,566.856,96.254,36.4,83.1112,4.2,14.8,7.2,86.0,1.21,1.172,1.504,1.21,1.614,2.8,2.652,5.83728,6.852,2.442,1.156,6.8,6.4,1.8,4.0,1.0,5.8,1048.8,5.04,790.79,1242.59,4.536,0.4284,10.6288,131.9504,27.6976,221.2,2.34,274.0496,7,16.036,1,11,4,45,0.3,0.16,1.52,0.3,1.03,0.8,0.89,2.8531,3.69,1.215,5.78,1,3,1,5,5,6,456,9.7,2624.2,4553.2,7.08,0.223,26.714,582.562,137.878,546,5.6,252.437,42,95.94,5,17,8,95,1.45,1.3,2.72,1.45,1.82,2.96,2.83,6.4079,7.59,2.685,5.78,7,7,2,5,5,7,1140,12.8,2890.15,4885.15,10.2,0.473,32.0,598.0,138.0,658,6.82,324.537,35,79.904,4,6,4,50,1.15,1.14,1.2,1.15,0.79,2.16,1.94,3.5548,3.9,1.47,0.0,6,4,1,0,0,1,684,3.1,265.95,331.95,3.12,0.25,5.286,15.438,0.122,112,1.22,72.1,5
209,209,CBr,g,-308.8332,285.651,33.948,20.5,45.9575,3.0,15.5,7.5,86.0,0.925,0.955,0.92,0.925,1.055,2.755,2.6,6.01625,6.93,2.6145,2.0,5.5,5.5,2.0,3.5,0.0,5.5,1113.0,2.45,1953.05,2716.05,3.3165,0.4965,62.643,185.619,10.061,414.5,4.295,223.157,29,67.893,2,3,1,18,0.45,0.37,0.56,0.45,1.53,0.41,0.46,0.7833,1.32,0.141,4.0,3,3,0,3,0,3,54,1.3,3374.2,4768.2,0.393,0.047,114.714,340.362,19.878,605,6.15,202.7607,35,79.904,4,17,8,95,1.15,1.14,1.2,1.15,1.82,2.96,2.83,6.4079,7.59,2.685,4.0,7,7,2,5,0,7,1140,3.1,3640.15,5100.15,3.513,0.52,120.0,355.8,20.0,717,7.37,324.537,6,12.011,2,14,7,77,0.7,0.77,0.64,0.7,0.29,2.55,2.37,5.6246,6.27,2.544,0.0,4,4,2,2,0,4,1086,1.8,265.95,331.95,3.12,0.473,5.286,15.438,0.122,112,1.22,121.7763,2
220,220,CCl2O,g,-392.3628,381.406,65.324,12.0,24.72895,2.5,16.0,7.5,88.0,0.825,0.87,0.78125,0.825,1.21,3.0775,2.9125,6.921025,7.6025,2.973,1.0,6.0,6.0,2.0,4.0,0.0,6.0,1225.5,1.74825,1009.8,1416.85,0.8802125,0.6,31.6706,94.9025,5.011135,302.0,3.1975,239.976,11,23.4417,1,3,1,17,0.4,0.26,0.545,0.4,1.38,0.89,0.95,2.7457,2.03,1.066,4.0,3,3,0,3,0,3,228,1.407,3585.4,5010.0,3.51157,0.44,119.777,352.3901,19.9911,596,5.97,226.7987,17,35.4527,3,17,8,94,1.0,0.99,1.01,1.0,1.67,3.44,3.32,8.3703,8.3,3.61,4.0,7,7,2,5,0,7,1314,2.2,3640.15,5100.15,3.513,0.92,120.0,355.8,20.0,717,7.37,348.575,6,12.011,2,14,7,77,0.6,0.73,0.465,0.6,0.29,2.55,2.37,5.6246,6.27,2.544,0.0,4,4,2,2,0,4,1086,0.793,54.75,90.15,0.00143,0.48,0.22259,3.4099,0.0089,121,1.4,121.7763,4
231,231,CF4,g,-374.7576,379.38,80.499,8.4,17.6009,2.0,16.4,7.8,89.8,0.54,0.73,0.452,0.54,1.01,3.694,3.498,9.19324,9.582,3.8632,0.8,6.4,6.4,2.0,4.4,0.0,6.4,1562.0,0.8672,770.71,1088.07,0.70396,0.76,24.20416,73.77584,4.02232,206.6,2.146,286.887,3,6.987403,0,3,1,16,0.2,0.05,0.235,0.2,0.9,1.43,1.41,4.4608,4.14,1.649,4.0,3,3,0,3,0,3,595,1.166,3586.8,5015.1,3.5113,0.3,119.7448,352.5302,19.9721,638,6.53,206.3886,9,18.9984,2,17,8,93,0.7,0.77,0.64,0.7,1.19,3.98,3.78,10.0854,10.41,4.193,4.0,7,7,2,5,0,7,1681,1.8,3640.15,5100.15,3.513,0.82,120.0,355.8,20.0,717,7.37,328.1649,6,12.011,2,14,7,77,0.5,0.72,0.405,0.5,0.29,2.55,2.37,5.6246,6.27,2.544,0.0,4,4,2,2,0,4,1086,0.634,53.35,85.05,0.0017,0.52,0.2552,3.2698,0.0279,79,0.84,121.7763,5
242,242,CHNO,g,-328.0176,319.216,55.041,5.5,10.75627,1.75,11.5,7.0,84.5,0.55,0.655,0.72375,0.55,0.475,2.8075,2.66,7.014175,7.0725,2.88,1.75,4.0,4.0,1.75,2.25,0.0,4.0,1278.5,1.09825,943.05,1321.975,0.878937,4.196,30.1604,90.613,5.058555,414.25,3.7275,83.8628,7,14.99146,1,15,0,15,0.45,0.4,0.785,0.45,1.11,1.24,1.22,2.7457,1.27,1.31,4.0,5,5,1,4,0,5,316,1.1,3626.1,5079.9,3.51293,13.784,119.941,355.351,19.97402,499,7.37,141.046,8,15.9994,2,16,7,92,0.7,0.77,1.25,0.7,1.21,3.44,3.32,8.3703,7.54,3.61,4.0,6,6,2,4,0,6,1402,1.8,3640.15,5100.15,3.513,14.304,120.0,355.8,20.0,717,7.37,140.976,1,1.00794,1,1,7,77,0.25,0.37,0.465,0.25,0.1,2.2,2.1,5.6246,6.27,2.3,0.0,1,1,1,0,0,1,1086,0.7,14.05,20.25,6.99e-05,0.52,0.05868,0.44936,0.02598,218,0.0,-0.07,4
253,253,CH3F3Si,g,-466.0488,487.052,118.414,6.25,12.5144,1.75,10.25,7.25,88.75,0.50625,0.64375,0.878125,0.50625,0.57,2.87375,2.74875,7.70015,7.97625,2.992375,1.0,4.0,4.0,1.625,2.375,0.0,4.0,1356.5,1.40025,690.6875,1005.525,0.731039,5.82525,21.4365,93.8972,21.0785,257.5,1.815,182.3308,13,27.07756,2,16,2,16,0.85,0.74,1.015,0.85,1.09,2.08,1.8,5.9002,5.64,2.277,4.0,6,6,1,5,0,6,894,4.766,3626.1,5079.9,3.51293,13.784,119.941,383.771,147.9721,638,7.37,255.3959,14,28.0855,3,17,8,93,1.1,1.11,1.42,1.1,1.19,3.98,3.78,10.0854,10.41,4.193,4.0,7,7,2,5,0,7,1681,5.4,3640.15,5100.15,3.513,14.304,120.0,384.22,148.0,717,7.37,328.1649,1,1.00794,1,1,6,77,0.25,0.37,0.405,0.25,0.1,1.9,1.98,4.1852,4.77,1.916,0.0,1,1,1,0,0,1,787,0.634,14.05,20.25,6.99e-05,0.52,0.05868,0.44936,0.0279,79,0.0,72.769,8
264,264,CO2,g,-290.7948,279.39,44.473,7.33333,14.6699,2.0,15.3333,7.0,83.6667,0.633333,0.743333,0.523333,0.633333,0.903333,3.14333,3.00333,7.45507,7.11667,3.25467,1.33333,5.33333,5.33333,2.0,3.33333,0.0,5.33333,1238.0,1.12867,1249.88,1760.15,1.17195,0.786667,40.1484,120.873,6.68449,405.0,4.20333,134.5761,2,3.9884,0,2,0,10,0.1,0.04,0.175,0.1,0.92,0.89,0.95,2.7457,1.27,1.066,4.0,2,2,0,2,0,2,228,1.007,3585.4,5010.0,3.51157,0.4,119.777,352.3901,19.97326,468,4.75,19.1997,8,15.9994,2,16,7,87,0.7,0.77,0.64,0.7,1.21,3.44,3.32,8.3703,7.54,3.61,4.0,6,6,2,4,0,6,1314,1.8,3640.15,5100.15,3.513,0.92,120.0,355.8,20.0,717,7.37,140.976,6,12.011,2,14,7,77,0.6,0.73,0.465,0.6,0.29,2.55,2.37,5.6246,6.27,2.544,0.0,4,4,2,2,0,4,1086,0.793,54.75,90.15,0.00143,0.52,0.22259,3.4099,0.02674,249,2.62,121.7763,3
275,275,C2F3N,g,-433.6392,443.295,98.314,7.66667,15.8373,2.0,15.6667,7.5,85.8333,0.591667,0.741667,0.505833,0.591667,0.741667,3.34667,3.155,8.0648,8.51167,3.4555,1.83333,5.66667,5.66667,2.0,3.66667,0.0,5.66667,1436.17,1.10033,1250.6,1755.47,1.17206,0.756667,40.1877,120.7,6.68495,357.333,3.69667,204.663,3,6.987403,0,3,1,16,0.2,0.05,0.235,0.2,0.9,1.43,1.41,4.4608,4.14,1.649,4.0,3,3,0,3,0,3,595,1.166,3586.8,5022.8,3.51175,0.52,119.7448,353.0072,19.97402,638,6.53,328.2349,9,18.9984,2,17,8,93,0.7,0.77,0.64,0.7,1.19,3.98,3.78,10.0854,10.41,4.193,4.0,7,7,2,5,0,7,1681,1.8,3640.15,5100.15,3.513,1.04,120.0,355.8,20.0,717,7.37,328.1649,6,12.011,2,14,7,77,0.5,0.72,0.405,0.5,0.29,2.55,2.37,5.6246,6.27,2.544,0.0,4,4,2,2,0,4,1086,0.634,53.35,77.35,0.00125,0.52,0.2552,2.7928,0.02598,79,0.84,-0.07,6
286,286,C2N2,g,-340.0452,336.445,63.688,6.5,13.00887,2.0,14.5,7.0,79.5,0.675,0.76,0.59,0.675,0.295,2.795,2.61,6.254,6.785,2.805,3.5,4.5,4.5,2.0,2.5,0.0,4.5,1244.0,1.45,1851.7,2588.75,1.757125,0.78,60.1802,179.2964,10.01299,595.0,6.145,60.85315,1,1.99574,0,1,0,5,0.05,0.02,0.1,0.05,0.01,0.49,0.48,1.2588,1.03,0.522,1.0,1,1,0,1,0,1,316,0.7,3576.9,5022.8,3.51175,0.52,119.6396,353.0072,19.97402,244,2.45,121.8463,7,14.00674,2,15,7,82,0.7,0.77,0.64,0.7,0.3,3.04,2.85,6.8834,7.3,3.066,4.0,5,5,2,3,0,5,1402,1.8,3640.15,5100.15,3.513,1.04,120.0,355.8,20.0,717,7.37,121.7763,6,12.011,2,14,7,77,0.65,0.75,0.54,0.65,0.29,2.55,2.37,5.6246,6.27,2.544,3.0,4,4,2,2,0,4,1086,1.1,63.25,77.35,0.00125,0.52,0.3604,2.7928,0.02598,473,4.92,-0.07,4
297,297,Ca,g,-201.8496,183.83,18.746,20.0,40.078,4.0,2.0,2.0,7.0,1.8,1.74,3.0,1.8,1.14,1.0,1.17,3.0128,2.2,1.034,2.0,2.0,2.0,2.0,0.0,0.0,2.0,590.0,22.8,1112.15,1757.15,1.55,0.63,8.54,153.3,200.0,178.0,1.84,2.37,0,0.0,0,0,0,0,0.0,0.0,0.0,0.0,0.0,0.0,0.0,0.0,0.0,0.0,0.0,0,0,0,0,0,0,0,0.0,0.0,0.0,0.0,0.0,0.0,0.0,0.0,0,0.0,0.0,20,40.078,4,2,2,7,1.8,1.74,3.0,1.8,1.14,1.0,1.17,3.0128,2.2,1.034,2.0,2,2,2,0,0,2,590,22.8,1112.15,1757.15,1.55,0.63,8.54,153.3,200.0,178,1.84,2.37,20,40.078,4,2,2,7,1.8,1.74,3.0,1.8,1.14,1.0,1.17,3.0128,2.2,1.034,2.0,2,2,2,0,0,2,590,22.8,1112.15,1757.15,1.55,0.63,8.54,153.3,200.0,178,1.84,2.37,1
308,308,Ca2,g,-331.26,295.583,23.439,20.0,40.078,4.0,2.0,2.0,7.0,1.8,1.74,3.0,1.8,1.14,1.0,1.17,3.0128,2.2,1.034,2.0,2.0,2.0,2.0,0.0,0.0,2.0,590.0,22.8,1112.15,1757.15,1.55,0.63,8.54,153.3,200.0,178.0,1.84,2.37,0,0.0,0,0,0,0,0.0,0.0,0.0,0.0,0.0,0.0,0.0,0.0,0.0,0.0,0.0,0,0,0,0,0,0,0,0.0,0.0,0.0,0.0,0.0,0.0,0.0,0.0,0,0.0,0.0,20,40.078,4,2,2,7,1.8,1.74,3.0,1.8,1.14,1.0,1.17,3.0128,2.2,1.034,2.0,2,2,2,0,0,2,590,22.8,1112.15,1757.15,1.55,0.63,8.54,153.3,200.0,178,1.84,2.37,20,40.078,4,2,2,7,1.8,1.74,3.0,1.8,1.14,1.0,1.17,3.0128,2.2,1.034,2.0,2,2,2,0,0,2,590,22.8,1112.15,1757.15,1.55,0.63,8.54,153.3,200.0,178,1.84,2.37,2
319,319,ClF3,g,-394.2624,386.578,69.631,11.0,23.112,2.25,17.0,8.0,93.25,0.625,0.7875,0.55625,0.625,1.31,3.775,3.58,9.2752,9.8825,3.862,0.0,7.0,7.0,2.0,5.0,0.0,7.0,1573.5,1.0255,83.05,123.425,0.0020775,0.735,0.9989,5.00235,0.02315,89.5,0.98,333.267,8,16.4543,1,0,0,1,0.5,0.27,0.605,0.5,0.48,0.82,0.8,3.2408,2.11,1.324,0.0,0,0,0,0,0,0,430,1.566,118.8,153.5,0.00151,0.34,2.9748,6.9302,0.019,42,0.56,20.4101,17,35.4527,3,17,8,94,1.0,0.99,1.01,1.0,1.67,3.98,3.78,10.0854,10.41,4.193,0.0,7,7,2,5,0,7,1681,2.2,172.15,238.55,0.00321,0.82,3.23,10.2,0.0279,121,1.4,348.575,9,18.9984,2,17,8,93,0.5,0.72,0.405,0.5,1.19,3.16,2.98,6.8446,8.3,2.869,0.0,7,7,2,5,0,7,1251,0.634,53.35,85.05,0.0017,0.48,0.2552,3.2698,0.0089,79,0.84,328.1649,4
330,330,ClLi,g,-282.7764,263.065,32.901,10.0,21.19685,2.5,9.0,4.5,47.5,1.225,1.31,1.31,1.225,1.285,2.07,1.94,5.03345,5.655,1.8905,0.5,4.0,4.0,1.5,2.5,0.0,4.0,885.5,13.25,312.9,926.85,0.273105,2.04,3.115,78.06,42.35445,141.0,1.515,204.1038,14,28.5117,1,16,7,93,0.45,0.64,0.6,0.45,0.77,2.18,2.08,3.6223,5.29,1.957,1.0,6,6,1,5,0,6,731,22.1,281.5,1376.6,0.53979,3.12,0.23,135.72,84.6911,40,0.23,288.9424,17,35.4527,3,17,8,94,1.45,1.63,1.61,1.45,1.67,3.16,2.98,6.8446,8.3,2.869,1.0,7,7,2,5,0,7,1251,24.3,453.65,1615.15,0.543,3.6,3.23,145.92,84.7,161,1.63,348.575,3,6.941,2,1,1,1,1.0,0.99,1.01,1.0,0.9,0.98,0.9,3.2223,3.01,0.912,0.0,1,1,1,0,0,1,520,2.2,172.15,238.55,0.00321,0.48,3.0,10.2,0.0089,121,1.4,59.6326,2
341,341,ClPb,g,-340.0452,311.51,33.767,49.5,121.326,4.5,15.5,6.5,87.5,1.4,1.23,1.55,1.4,1.58,2.48,2.45,5.7925,6.1,2.3615,1.22,5.5,5.5,2.0,3.5,5.0,5.5,983.5,4.5,386.4,1125.85,5.701605,0.305,4.0145,93.95,17.65445,158.5,1.715,191.4977,65,171.7473,3,3,3,13,0.8,0.48,1.08,0.8,0.18,1.36,1.06,2.1042,4.4,1.015,2.44,3,3,0,3,10,3,535,4.6,428.5,1774.6,11.39679,0.35,1.569,167.5,35.2911,75,0.63,314.1546,82,207.2,6,17,8,94,1.8,1.47,2.09,1.8,1.67,3.16,2.98,6.8446,8.3,2.869,2.44,7,7,2,5,10,7,1251,6.8,600.65,2013.15,11.4,0.48,4.799,177.7,35.3,196,2.03,348.575,17,35.4527,3,14,5,81,1.0,0.99,1.01,1.0,1.49,1.8,1.92,4.7404,3.9,1.854,0.0,4,4,2,2,0,4,716,2.2,172.15,238.55,0.00321,0.13,3.23,10.2,0.0089,121,1.4,34.4204,2
352,352,Cl2Fe,g,-405.3804,383.87,55.263,20.0,42.2508,3.33333,14.0,6.66667,81.0,1.13333,1.05,1.37667,1.13333,1.34333,2.71667,2.54333,5.70273,6.88667,2.51267,1.92667,7.33333,6.33333,2.0,3.33333,2.0,5.33333,1088.0,4.26667,717.483,1166.75,2.62214,0.466667,6.75333,123.333,26.7393,220.0,2.36,237.312,9,20.3943,1,9,4,39,0.4,0.18,1.1,0.4,0.98,1.33,1.31,3.4256,4.24,1.069,5.78,1,2,0,5,6,5,489,6.2,1636.0,2784.6,7.85679,0.04,10.57,339.4,80.1911,297,2.88,333.79,26,55.847,4,17,8,94,1.4,1.17,2.11,1.4,1.67,3.16,2.98,6.8446,8.3,2.869,5.78,8,7,2,5,6,7,1251,8.4,1808.15,3023.15,7.86,0.48,13.8,349.6,80.2,418,4.28,348.575,17,35.4527,3,8,4,55,1.0,0.99,1.01,1.0,0.69,1.83,1.67,3.419,4.06,1.8,0.0,7,5,2,0,0,2,762,2.2,172.15,238.55,0.00321,0.44,3.23,10.2,0.0089,121,1.4,14.785,3
363,363,Cl2O2S,g,-442.2468,440.7,86.593,13.2,26.99404,2.6,16.4,7.4,90.0,0.84,0.892,0.81,0.84,1.238,3.156,3.05,7.25512,7.58,3.1094,0.4,6.4,6.4,2.0,4.4,0.0,6.4,1226.0,1.7772,167.95,275.05,0.415856,0.702,1.724536,7.40396,0.068056,203.8,2.178,235.902,9,19.4533,1,1,1,7,0.4,0.29,0.635,0.4,1.24,0.86,0.67,2.5245,2.08,1.021,2.0,1,1,0,1,0,1,314,2.107,331.2,627.7,2.06857,0.44,3.00741,6.7901,0.2601,158,1.45,207.599,17,35.4527,3,17,8,94,1.0,1.02,1.1,1.0,1.67,3.44,3.32,8.3703,8.3,3.61,2.0,7,7,2,5,0,7,1314,2.9,385.95,717.85,2.07,0.92,3.23,10.2,0.269,279,2.85,348.575,8,15.9994,2,16,7,87,0.6,0.73,0.465,0.6,0.43,2.58,2.65,5.8458,6.22,2.589,0.0,6,6,2,4,0,6,1000,0.793,54.75,90.15,0.00143,0.48,0.22259,3.4099,0.0089,121,1.4,140.976,5
374,374,Cl3Cu3,g,-614.7636,610.609,117.968,23.0,49.49935,3.5,14.0,6.0,79.0,1.175,1.08,1.525,1.175,1.19,2.53,2.03,5.25415,6.39,2.3595,2.72,9.0,4.5,1.5,2.5,5.0,4.0,998.0,4.45,764.15,1539.35,4.481605,0.43,8.14,155.25,200.504,229.5,2.445,233.905,12,28.0933,1,6,4,30,0.35,0.18,1.03,0.35,0.96,1.26,1.9,3.1809,3.82,1.019,5.44,4,5,1,5,10,6,506,4.5,1184.0,2601.6,8.95679,0.1,9.82,290.1,400.9911,217,2.09,229.34,29,63.546,4,17,8,94,1.35,1.17,2.04,1.35,1.67,3.16,2.98,6.8446,8.3,2.869,5.44,11,7,2,5,10,7,1251,6.7,1356.15,2840.15,8.96,0.48,13.05,300.3,401.0,338,3.49,348.575,17,35.4527,3,11,4,64,1.0,0.99,1.01,1.0,0.71,1.9,1.08,3.6637,4.48,1.85,0.0,7,2,1,0,0,1,745,2.2,172.15,238.55,0.00321,0.38,3.23,10.2,0.0089,121,1.4,119.235,6
385,385,Cl4Co2,g,-641.0556,633.76,119.457,20.3333,43.2795,3.33333,14.3333,6.66667,82.0,1.11667,1.04667,1.34667,1.11667,1.29333,2.73333,2.56,5.72893,6.96667,2.526,1.92667,7.66667,6.0,2.0,3.33333,2.33333,5.33333,1087.33,3.96667,704.15,1206.75,2.96881,0.46,7.55,132.3,33.3393,222.333,2.39667,253.683,10,23.4805,1,8,4,36,0.35,0.17,1.01,0.35,1.13,1.28,1.26,3.347,4.0,1.029,5.78,2,3,0,5,7,5,491,5.3,1596.0,2904.6,8.89679,0.06,12.96,366.3,99.9911,304,2.99,284.677,27,58.9332,4,17,8,94,1.35,1.16,2.02,1.35,1.67,3.16,2.98,6.8446,8.3,2.869,5.78,9,7,2,5,7,7,1251,7.5,1768.15,3143.15,8.9,0.48,16.19,376.5,100.0,425,4.39,348.575,17,35.4527,3,9,4,58,1.0,0.99,1.01,1.0,0.54,1.88,1.72,3.4976,4.3,1.84,0.0,7,4,2,0,0,2,760,2.2,172.15,238.55,0.00321,0.42,3.23,10.2,0.0089,121,1.4,63.898,6
396,396,Cl5Nb,g,-582.1404,582.194,116.492,21.0,45.0283,3.33333,15.0,7.33333,86.1667,1.075,1.04833,1.30167,1.075,1.52167,2.9,2.82167,6.28755,7.58333,2.62583,0.833333,6.66667,6.33333,1.83333,4.16667,0.666667,6.0,1151.17,4.45,600.317,1034.65,1.43101,0.443333,7.09167,122.167,8.95742,221.833,2.42833,305.232,24,57.45368,2,12,4,47,0.45,0.35,1.75,0.45,0.89,1.56,0.95,3.3423,4.3,1.459,5.0,2,4,1,5,4,6,599,13.5,2569.0,4776.6,8.56679,0.22,23.17,671.8,53.6911,605,6.17,260.0581,41,92.90638,5,17,8,94,1.45,1.34,2.76,1.45,1.67,3.16,2.98,6.8446,8.3,2.869,5.0,7,7,2,5,4,7,1251,15.7,2741.15,5015.15,8.57,0.48,26.4,682.0,53.7,726,7.57,348.575,17,35.4527,3,5,4,47,1.0,0.99,1.01,1.0,0.78,1.6,2.03,3.5023,4.0,1.41,0.0,5,3,1,0,0,1,652,2.2,172.15,238.55,0.00321,0.26,3.23,10.2,0.0089,121,1.4,88.5169,6
407,407,CrN,g,-302.3592,278.203,31.484,15.5,33.00142,3.0,10.5,5.5,65.5,1.025,0.965,1.49,1.025,0.53,2.35,2.425,5.07735,5.51,2.358,4.39,5.5,4.5,1.5,1.5,2.5,3.0,1027.5,6.35,1096.7,1511.25,3.595625,0.745,8.6302,173.5464,46.86299,435.0,4.51,32.57,17,37.98936,2,9,3,33,0.75,0.43,1.9,0.75,0.46,1.38,0.85,3.6121,3.58,1.416,2.78,1,1,1,3,5,4,749,10.5,2066.9,2867.8,7.18875,0.59,16.5396,341.5072,93.67402,76,0.82,65.28,24,51.9961,4,15,7,82,1.4,1.18,2.44,1.4,0.76,3.04,2.85,6.8834,7.3,3.066,5.78,6,5,2,3,5,5,1402,11.6,2130.15,2945.15,7.19,1.04,16.9,344.3,93.7,473,4.92,65.21,7,14.00674,2,6,4,49,0.65,0.75,0.54,0.65,0.3,1.66,2.0,3.2713,3.72,1.65,3.0,5,4,1,0,0,1,653,1.1,63.25,77.35,0.00125,0.45,0.3604,2.7928,0.02598,397,4.1,-0.07,2
418,418,Cs2O,g,-425.4804,397.755,51.825,39.3333,93.9368,4.66667,6.0,3.0,32.3333,1.93333,1.81,3.02833,1.93333,1.61,1.67333,1.62,5.74517,3.96667,1.64267,0.666667,2.66667,2.66667,1.33333,1.33333,0.0,2.66667,688.667,39.9977,219.283,658.15,1.24714,0.466667,1.46886,46.2966,39.3422,135.667,1.40933,77.3287,47,116.906,4,15,6,82,2.0,1.62,3.845,2.0,0.6,2.65,2.55,3.9377,5.36,2.951,1.0,5,5,1,4,0,5,938,58.807,246.8,852.0,1.86857,0.68,1.86941,64.3301,58.97326,170,1.816,95.471,55,132.905,6,16,7,87,2.6,2.35,4.31,2.6,1.81,3.44,3.32,8.3703,7.54,3.61,1.0,6,6,2,4,0,6,1314,59.6,301.55,942.15,1.87,0.92,2.092,67.74,59.0,249,2.62,140.976,8,15.9994,2,1,1,5,0.6,0.73,0.465,0.6,1.21,0.79,0.77,4.4326,2.18,0.659,0.0,1,1,1,0,0,1,376,0.793,54.75,90.15,0.00143,0.24,0.22259,3.4099,0.02674,79,0.804,45.505,3
429,429,H3F3,g,-416.1432,421.9,90.138,5.0,10.0032,1.5,9.0,7.5,92.5,0.375,0.545,0.8275,0.375,0.645,3.09,2.94,8.6319,8.795,3.2465,0.0,4.0,4.0,1.5,2.5,0.0,4.0,1496.5,0.667,33.7,52.65,0.00088495,7.562,0.15694,1.85958,0.1047,148.5,0.42,200.467,8,17.9905,1,16,1,1,0.25,0.35,0.845,0.25,1.09,1.78,1.68,2.907,3.23,1.893,0.0,6,6,1,5,0,6,369,0.066,39.3,64.8,0.0016301,13.484,0.19652,2.82044,0.1536,139,0.84,255.3959,9,18.9984,2,17,8,93,0.5,0.72,1.25,0.5,1.19,3.98,3.78,10.0854,10.41,4.193,0.0,7,7,2,5,0,7,1681,0.7,53.35,85.05,0.0017,14.304,0.2552,3.2698,0.1815,218,0.84,328.1649,1,1.00794,1,1,7,92,0.25,0.37,0.405,0.25,0.1,2.2,2.1,7.1784,7.18,2.3,0.0,1,1,1,0,0,1,1312,0.634,14.05,20.25,6.99e-05,0.82,0.05868,0.44936,0.0279,79,0.0,72.769,6
440,440,FLi,g,-266.4864,248.733,31.992,6.0,12.9697,2.0,9.0,4.5,47.0,0.975,1.175,1.0075,0.975,1.045,2.48,2.34,6.65385,6.71,2.5525,0.5,4.0,4.0,1.5,2.5,0.0,4.0,1100.5,12.467,253.5,850.1,0.27235,2.21,1.6276,74.5949,42.36395,120.0,1.235,193.899,6,12.0574,0,16,7,92,0.95,0.91,1.205,0.95,0.29,3.0,2.88,6.8631,7.4,3.281,1.0,6,6,1,5,0,6,1161,23.666,400.3,1530.1,0.5413,2.78,2.7448,142.6502,84.6721,82,0.79,268.5323,9,18.9984,2,17,8,93,1.45,1.63,1.61,1.45,1.19,3.98,3.78,10.0854,10.41,4.193,1.0,7,7,2,5,0,7,1681,24.3,453.65,1615.15,0.543,3.6,3.0,145.92,84.7,161,1.63,328.1649,3,6.941,2,1,1,1,0.5,0.72,0.405,0.5,0.9,0.98,0.9,3.2223,3.01,0.912,0.0,1,1,1,0,0,1,520,0.634,53.35,85.05,0.0017,0.82,0.2552,3.2698,0.0279,79,0.84,59.6326,2
451,451,FO2,g,-348.8652,329.903,47.019,8.33333,16.9991,2.0,16.3333,7.33333,89.0,0.566667,0.726667,0.445,0.566667,1.20333,3.62,3.47333,8.942,8.49667,3.80433,0.0,6.33333,6.33333,2.0,4.33333,0.0,6.33333,1436.33,0.74,54.2833,88.45,0.00152,0.886667,0.23346,3.3632,0.0271267,192.333,2.02667,203.3723,1,2.999003,0,1,1,6,0.1,0.01,0.06,0.1,0.02,0.54,0.46,1.7151,2.87,0.583,0.0,1,1,0,1,0,1,367,0.159,1.4,5.1,0.00027,0.1,0.03261,0.1401,0.00116,170,1.78,187.1889,9,18.9984,2,17,8,93,0.6,0.73,0.465,0.6,1.21,3.98,3.78,10.0854,10.41,4.193,0.0,7,7,2,5,0,7,1681,0.793,54.75,90.15,0.0017,0.92,0.2552,3.4099,0.0279,249,2.62,328.1649,8,15.9994,2,16,7,87,0.5,0.72,0.405,0.5,1.19,3.44,3.32,8.3703,7.54,3.61,0.0,6,6,2,4,0,6,1314,0.634,53.35,85.05,0.00143,0.82,0.22259,3.2698,0.02674,79,0.84,140.976,3
462,462,H2F2Si,g,-369.7752,369.923,74.132,6.8,13.6196,1.8,10.0,7.2,89.6,0.52,0.658,0.946,0.52,0.596,2.852,2.748,7.74256,7.99,2.9804,0.8,4.0,4.0,1.6,2.4,0.0,4.0,1354.6,1.6136,363.59,567.75,0.466708,6.1916,10.2356,78.3317,29.68376,209.2,1.262,187.187,13,27.07756,2,16,2,15,0.85,0.74,1.015,0.85,1.09,2.08,1.8,5.9002,5.64,2.277,4.0,6,6,1,5,0,6,894,4.766,1669.1,2607.9,2.32993,13.594,50.49132,383.771,147.9721,373,4.63,255.3959,14,28.0855,3,17,8,93,1.1,1.11,1.42,1.1,1.19,3.98,3.78,10.0854,10.41,4.193,4.0,7,7,2,5,0,7,1681,5.4,1683.15,2628.15,2.33,14.304,50.55,384.22,148.0,452,4.63,328.1649,1,1.00794,1,1,6,78,0.25,0.37,0.405,0.25,0.1,1.9,1.98,4.1852,4.77,1.916,0.0,1,1,1,0,0,1,787,0.634,14.05,20.25,6.99e-05,0.71,0.05868,0.44936,0.0279,79,0.0,72.769,5
473,473,F2OS,g,-387.2916,377.956,66.255,10.5,21.5156,2.25,16.5,7.5,90.25,0.65,0.7975,0.59375,0.65,1.005,3.495,3.3825,8.596725,8.645,3.64625,0.5,6.5,6.5,2.0,4.5,0.0,6.5,1419.0,1.24025,136.85,244.525,0.5187075,0.8175,0.6126225,4.937375,0.087885,171.5,1.7875,249.429,8,16.0666,1,1,1,6,0.5,0.3,0.695,0.5,0.78,1.4,1.13,4.2396,4.19,1.604,2.0,1,1,0,1,0,1,681,2.266,332.6,632.8,2.06857,0.21,1.49491,6.5302,0.24226,200,2.01,187.1889,16,32.066,3,17,8,93,1.0,1.02,1.1,1.0,1.21,3.98,3.78,10.0854,10.41,4.193,2.0,7,7,2,5,0,7,1681,2.9,385.95,717.85,2.07,0.92,1.7175,9.8,0.269,279,2.85,328.1649,8,15.9994,2,16,7,87,0.5,0.72,0.405,0.5,0.43,2.58,2.65,5.8458,6.22,2.589,0.0,6,6,2,4,0,6,1000,0.634,53.35,85.05,0.00143,0.71,0.22259,3.2698,0.02674,79,0.84,140.976,4
484,484,F2Ti,g,-351.1956,337.483,53.784,13.3333,28.6256,2.66667,12.6667,6.66667,76.3333,0.8,0.92,1.13,0.8,1.04333,3.16667,3.14,7.7689,8.09,3.25533,1.33333,6.0,5.33333,2.0,3.33333,0.666667,5.33333,1340.33,5.28933,679.95,1243.42,1.51447,0.72,5.32013,142.5132,7.3186,209.333,2.17667,221.443,13,28.8816,2,13,4,50,0.9,0.6,2.175,0.9,0.44,2.44,1.92,6.9495,6.96,2.813,4.0,3,5,0,5,2,5,1022,13.966,1879.8,3475.1,4.5383,0.3,15.1948,417.7302,21.8721,391,4.01,320.1649,22,47.88,4,17,8,93,1.4,1.32,2.58,1.4,1.19,3.98,3.78,10.0854,10.41,4.193,4.0,7,7,2,5,2,7,1681,14.6,1933.15,3560.15,4.54,0.82,15.45,421.0,21.9,470,4.85,328.1649,9,18.9984,2,4,4,43,0.5,0.72,0.405,0.5,0.75,1.54,1.86,3.1359,3.45,1.38,0.0,4,2,2,0,0,2,659,0.634,53.35,85.05,0.0017,0.52,0.2552,3.2698,0.0279,79,0.84,8.0,3
495,495,F3S,g,-399.2328,390.366,69.206,10.75,22.2653,2.25,16.75,7.75,91.75,0.625,0.795,0.57875,0.625,1.0,3.63,3.4975,9.0255,9.3625,3.792,0.5,6.75,6.75,2.0,4.75,0.0,6.75,1510.75,1.2005,136.5,243.25,0.518775,0.7925,0.620775,4.90235,0.088175,129.0,1.3425,296.2262,7,13.0676,1,1,1,5,0.5,0.3,0.695,0.5,0.76,1.4,1.13,4.2396,4.19,1.604,2.0,1,1,0,1,0,1,681,2.266,332.6,632.8,2.0683,0.11,1.4623,6.5302,0.2411,200,2.01,127.7548,16,32.066,3,17,8,93,1.0,1.02,1.1,1.0,1.19,3.98,3.78,10.0854,10.41,4.193,2.0,7,7,2,5,0,7,1681,2.9,385.95,717.85,2.07,0.82,1.7175,9.8,0.269,279,2.85,328.1649,9,18.9984,2,16,7,88,0.5,0.72,0.405,0.5,0.43,2.58,2.65,5.8458,6.22,2.589,0.0,6,6,2,4,0,6,1000,0.634,53.35,85.05,0.0017,0.71,0.2552,3.2698,0.0279,79,0.84,200.4101,4
506,506,F4Si,g,-407.1792,411.081,86.118,10.0,20.8158,2.2,16.4,7.6,90.0,0.62,0.798,0.608,0.62,1.032,3.564,3.42,8.90536,9.282,3.7376,0.8,6.4,6.4,2.0,4.4,0.0,6.4,1502.2,1.5872,379.31,593.67,0.46736,0.798,10.31416,79.45984,29.62232,153.6,1.598,289.3456,5,9.087097,1,3,2,15,0.6,0.39,1.015,0.6,0.79,2.08,1.8,5.9002,5.64,2.277,4.0,3,3,0,3,0,3,894,4.766,1629.8,2543.1,2.3283,0.11,50.2948,380.9502,147.9721,373,3.79,194.0965,14,28.0855,3,17,8,93,1.1,1.11,1.42,1.1,1.19,3.98,3.78,10.0854,10.41,4.193,4.0,7,7,2,5,0,7,1681,5.4,1683.15,2628.15,2.33,0.82,50.55,384.22,148.0,452,4.63,328.1649,9,18.9984,2,14,6,78,0.5,0.72,0.405,0.5,0.4,1.9,1.98,4.1852,4.77,1.916,0.0,4,4,2,2,0,4,787,0.634,53.35,85.05,0.0017,0.71,0.2552,3.2698,0.0279,79,0.84,134.0684,5
517,517,F10Mo2,g,-827.118,885.086,234.986,14.5,31.822,2.5,15.1667,7.33333,85.8333,0.658333,0.816667,0.790833,0.658333,1.12333,3.67667,3.47333,8.99697,9.325,3.73917,0.963333,6.83333,6.5,1.83333,4.16667,0.833333,6.0,1514.83,2.66167,526.15,885.067,1.70142,0.725,5.546,102.3915,23.02325,175.5,1.83667,285.487,33,76.9416,3,11,4,43,0.95,0.58,2.315,0.95,0.4,1.82,1.84,6.5306,6.51,2.723,5.78,1,3,1,5,5,6,997,12.166,2836.8,4800.1,10.1983,0.57,31.7448,594.7302,137.9721,579,5.98,256.0649,42,95.94,5,17,8,93,1.45,1.3,2.72,1.45,1.19,3.98,3.78,10.0854,10.41,4.193,5.78,7,7,2,5,5,7,1681,12.8,2890.15,4885.15,10.2,0.82,32.0,598.0,138.0,658,6.82,328.1649,9,18.9984,2,6,4,50,0.5,0.72,0.405,0.5,0.79,2.16,1.94,3.5548,3.9,1.47,0.0,6,4,1,0,0,1,684,0.634,53.35,85.05,0.0017,0.25,0.2552,3.2698,0.0279,79,0.84,72.1,12
528,528,HHg,g,-288.9444,267.093,31.568,40.5,100.799,3.5,6.5,5.5,81.5,0.875,0.93,1.83,0.875,0.465,2.1,1.795,7.71265,6.045,2.03,2.22,6.5,1.0,1.5,0.0,5.0,1.5,1159.5,3.05,124.15,325.2,6.75003,7.2215,1.17684,29.83918,4.26075,139.5,0.335,11.3845,79,199.582,5,11,3,21,1.25,1.12,1.16,1.25,0.73,0.2,0.61,1.0685,2.27,0.54,4.44,11,0,1,0,10,1,305,4.7,220.2,609.9,13.4999,14.165,2.23632,58.77964,8.1585,157,0.67,122.769,80,200.59,6,12,7,92,1.5,1.49,2.41,1.5,0.83,2.2,2.1,8.2469,7.18,2.3,4.44,12,1,2,0,10,2,1312,5.4,234.25,630.15,13.5,14.304,2.295,59.229,8.34,218,0.67,72.769,1,1.00794,1,1,4,71,0.25,0.37,1.25,0.25,0.1,2.0,1.49,7.1784,4.91,1.76,0.0,1,1,1,0,0,1,1007,0.7,14.05,20.25,6.99e-05,0.139,0.05868,0.44936,0.1815,61,0.0,-50.0,2
539,539,HNO2,g,-342.2436,332.138,56.322,6.0,11.75337,1.75,12.0,7.0,87.0,0.525,0.645,0.68,0.525,0.705,3.03,2.8975,7.7006,7.39,3.1465,0.75,4.5,4.5,1.75,2.75,0.0,4.5,1335.5,0.8465,46.7,69.475,0.001044975,4.296,0.216065,2.51549,0.06524,297.25,2.54,88.66275,7,14.99146,1,15,0,10,0.4,0.38,0.785,0.4,1.11,1.24,1.22,1.4869,0.36,1.31,3.0,5,5,1,4,0,5,90,0.4,49.2,69.9,0.0013601,13.384,0.30172,2.96054,0.15552,255,4.92,141.046,8,15.9994,2,16,7,92,0.65,0.75,1.25,0.65,1.21,3.44,3.32,8.3703,7.54,3.61,3.0,6,6,2,4,0,6,1402,1.1,63.25,90.15,0.00143,14.304,0.3604,3.4099,0.1815,473,4.92,140.976,1,1.00794,1,1,7,82,0.25,0.37,0.465,0.25,0.1,2.2,2.1,6.8834,7.18,2.3,0.0,1,1,1,0,0,1,1312,0.7,14.05,20.25,6.99e-05,0.92,0.05868,0.44936,0.02598,218,0.0,-0.07,4
550,550,HSi,g,-261.432,242.14,29.136,7.5,14.54672,2.0,7.5,6.5,85.0,0.675,0.74,1.335,0.675,0.25,2.05,2.04,5.6818,5.975,2.108,2.0,2.5,2.5,1.5,1.0,0.0,2.5,1049.5,3.05,848.6,1324.2,1.16503,7.507,25.30434,192.335,74.09075,335.0,2.315,103.4187,13,27.07756,2,13,1,14,0.85,0.74,0.17,0.85,0.3,0.3,0.12,2.9932,2.41,0.384,4.0,3,3,1,2,0,3,525,4.7,1669.1,2607.9,2.32993,13.594,50.49132,383.771,147.8185,234,4.63,61.2994,14,28.0855,3,14,7,92,1.1,1.11,1.42,1.1,0.4,2.2,2.1,7.1784,7.18,2.3,4.0,4,4,2,2,0,4,1312,5.4,1683.15,2628.15,2.33,14.304,50.55,384.22,148.0,452,4.63,134.0684,1,1.00794,1,1,6,78,0.25,0.37,1.25,0.25,0.1,1.9,1.98,4.1852,4.77,1.916,0.0,1,1,1,0,0,1,787,0.7,14.05,20.25,6.99e-05,0.71,0.05868,0.44936,0.1815,218,0.0,72.769,2
561,561,H2O2,g,-319.6596,309.58,51.837,4.5,8.50367,1.5,8.5,7.0,89.5,0.425,0.55,0.8575,0.425,0.655,2.82,2.71,7.77435,7.36,2.955,0.0,3.5,3.5,1.5,2.0,0.0,3.5,1313.0,0.7465,34.4,55.2,0.00074995,7.612,0.140635,1.92963,0.10412,233.5,1.31,106.8725,7,14.99146,1,15,0,5,0.35,0.36,0.785,0.35,1.11,1.24,1.22,1.1919,0.36,1.31,0.0,5,5,1,4,0,5,2,0.093,40.7,69.9,0.0013601,13.384,0.16391,2.96054,0.15476,31,2.62,68.207,8,15.9994,2,16,7,92,0.6,0.73,1.25,0.6,1.21,3.44,3.32,8.3703,7.54,3.61,0.0,6,6,2,4,0,6,1314,0.793,54.75,90.15,0.00143,14.304,0.22259,3.4099,0.1815,249,2.62,140.976,1,1.00794,1,1,7,87,0.25,0.37,0.465,0.25,0.1,2.2,2.1,7.1784,7.18,2.3,0.0,1,1,1,0,0,1,1312,0.7,14.05,20.25,6.99e-05,0.92,0.05868,0.44936,0.02674,218,0.0,72.769,4
572,572,Hf,g,-241.1424,218.761,21.371,72.0,178.49,6.0,4.0,4.0,45.0,1.55,1.44,2.91,1.55,0.85,1.3,1.73,6.3704,3.8,1.16,4.0,4.0,2.0,2.0,0.0,2.0,2.0,659.0,16.2,2500.15,4873.15,13.3,0.14,24.06,575.0,23.0,619.0,6.44,1.64,0,0.0,0,0,0,0,0.0,0.0,0.0,0.0,0.0,0.0,0.0,0.0,0.0,0.0,0.0,0,0,0,0,0,0,0,0.0,0.0,0.0,0.0,0.0,0.0,0.0,0.0,0,0.0,0.0,72,178.49,6,4,4,45,1.55,1.44,2.91,1.55,0.85,1.3,1.73,6.3704,3.8,1.16,4.0,4,2,2,0,2,2,659,16.2,2500.15,4873.15,13.3,0.14,24.06,575.0,23.0,619,6.44,1.64,72,178.49,6,4,4,45,1.55,1.44,2.91,1.55,0.85,1.3,1.73,6.3704,3.8,1.16,4.0,4,2,2,0,2,2,659,16.2,2500.15,4873.15,13.3,0.14,24.06,575.0,23.0,619,6.44,1.64,1
583,583,IPb,g,-364.9464,332.438,33.979,67.5,167.052,5.5,15.5,6.5,88.5,1.6,1.4,1.8375,1.6,1.775,2.23,2.34,5.33615,5.33,2.1065,1.22,5.5,5.5,2.0,3.5,10.0,5.5,862.0,5.9,493.65,1235.15,8.165,0.172,6.3115,99.226,17.8745,151.5,1.57,164.787,29,80.29553,1,3,3,15,0.4,0.14,0.505,0.4,0.57,0.86,0.84,1.1915,2.86,0.505,2.44,3,3,0,3,0,3,292,1.8,214.0,1556.0,6.47,0.084,3.025,156.948,34.851,89,0.92,260.7327,82,207.2,6,17,8,96,1.8,1.47,2.09,1.8,2.06,2.66,2.76,5.9319,6.76,2.359,2.44,7,7,2,5,10,7,1008,6.8,600.65,2013.15,11.4,0.214,7.824,177.7,35.3,196,2.03,295.1531,53,126.904,5,14,5,81,1.4,1.33,1.585,1.4,1.49,1.8,1.92,4.7404,3.9,1.854,0.0,4,4,2,2,10,4,716,5.0,386.65,457.15,4.93,0.13,4.799,20.752,0.449,107,1.11,34.4204,2
594,594,I2Si,g,-428.6508,400.23,51.625,40.0,93.9648,4.33333,16.0,7.33333,90.0,1.3,1.25667,1.53,1.3,1.50667,2.40667,2.5,5.34967,6.09667,2.21133,1.33333,6.0,6.0,2.0,4.0,6.66667,6.0,934.333,5.13333,818.817,1180.82,4.06333,0.379333,22.066,141.908,49.6327,222.0,2.28333,241.4582,39,98.81897,2,3,2,18,0.3,0.22,0.165,0.3,1.66,0.76,0.78,1.7467,1.99,0.443,4.0,3,3,0,3,10,3,221,0.4,1296.5,2171.0,2.6,0.496,42.726,363.468,147.551,345,3.52,161.0847,53,126.904,5,17,8,96,1.4,1.33,1.585,1.4,2.06,2.66,2.76,5.9319,6.76,2.359,4.0,7,7,2,5,10,7,1008,5.4,1683.15,2628.15,4.93,0.71,50.55,384.22,148.0,452,4.63,295.1531,14,28.0855,3,14,6,78,1.1,1.11,1.42,1.1,0.4,1.9,1.98,4.1852,4.77,1.916,0.0,4,4,2,2,0,4,787,5.0,386.65,457.15,2.33,0.214,7.824,20.752,0.449,107,1.11,134.0684,3
605,605,I4Ti,g,-601.4844,581.727,96.587,46.8,111.1,4.8,14.4,7.2,85.4,1.4,1.328,1.784,1.4,1.798,2.436,2.58,5.3727,6.098,2.1632,0.8,6.4,6.0,2.0,4.0,8.4,6.0,938.2,6.92,695.95,1077.75,4.852,0.2752,9.3492,100.8016,4.7392,179.6,1.858,237.722,31,79.02447,1,13,4,53,0.0,0.01,0.995,0.0,1.31,1.12,0.9,2.796,3.31,0.979,4.0,3,5,0,5,8,5,349,9.6,1546.5,3103.0,0.39,0.306,7.626,400.248,21.451,363,3.74,287.1531,53,126.904,5,17,8,96,1.4,1.33,2.58,1.4,2.06,2.66,2.76,5.9319,6.76,2.359,4.0,7,7,2,5,10,7,1008,14.6,1933.15,3560.15,4.93,0.52,15.45,421.0,21.9,470,4.85,295.1531,22,47.88,4,4,4,43,1.4,1.32,1.585,1.4,0.75,1.54,1.86,3.1359,3.45,1.38,0.0,4,2,2,0,2,2,659,5.0,386.65,457.15,4.54,0.214,7.824,20.752,0.449,107,1.11,8.0,5
616,616,LiO,g,-279.9948,260.468,32.567,5.5,11.4702,2.0,8.5,4.0,44.0,1.025,1.18,1.0375,1.025,1.055,2.21,2.11,5.7963,5.275,2.261,0.5,3.5,3.5,1.5,2.0,0.0,3.5,917.0,12.5465,254.2,852.65,0.272215,2.26,1.611295,74.66495,42.36337,205.0,2.125,100.3043,5,9.0584,0,15,6,86,0.85,0.9,1.145,0.85,0.31,2.46,2.42,5.148,4.53,2.698,1.0,5,5,1,4,0,5,794,23.507,398.9,1525.0,0.54157,2.68,2.77741,142.5101,84.67326,88,0.99,81.3434,8,15.9994,2,16,7,87,1.45,1.63,1.61,1.45,1.21,3.44,3.32,8.3703,7.54,3.61,1.0,6,6,2,4,0,6,1314,24.3,453.65,1615.15,0.543,3.6,3.0,145.92,84.7,249,2.62,140.976,3,6.941,2,1,1,1,0.6,0.73,0.465,0.6,0.9,0.98,0.9,3.2223,3.01,0.912,0.0,1,1,1,0,0,1,520,0.793,54.75,90.15,0.00143,0.92,0.22259,3.4099,0.02674,161,1.63,59.6326,2
627,627,Mo,g,-234.3276,210.895,18.746,42.0,95.94,5.0,6.0,4.0,50.0,1.45,1.3,2.72,1.45,0.79,2.16,1.94,3.5548,3.9,1.47,5.78,6.0,4.0,1.0,0.0,5.0,1.0,684.0,12.8,2890.15,4885.15,10.2,0.25,32.0,598.0,138.0,658.0,6.82,72.1,0,0.0,0,0,0,0,0.0,0.0,0.0,0.0,0.0,0.0,0.0,0.0,0.0,0.0,0.0,0,0,0,0,0,0,0,0.0,0.0,0.0,0.0,0.0,0.0,0.0,0.0,0,0.0,0.0,42,95.94,5,6,4,50,1.45,1.3,2.72,1.45,0.79,2.16,1.94,3.5548,3.9,1.47,5.78,6,4,1,0,5,1,684,12.8,2890.15,4885.15,10.2,0.25,32.0,598.0,138.0,658,6.82,72.1,42,95.94,5,6,4,50,1.45,1.3,2.72,1.45,0.79,2.16,1.94,3.5548,3.9,1.47,5.78,6,4,1,0,5,1,684,12.8,2890.15,4885.15,10.2,0.25,32.0,598.0,138.0,658,6.82,72.1,1
638,638,NV,g,-306.5268,282.594,32.586,15.0,32.47412,3.0,10.0,5.5,64.0,1.0,0.985,1.485,1.0,0.49,2.335,2.535,5.04275,5.45,2.298,4.0,5.0,4.0,2.0,1.5,1.5,3.5,1026.5,6.75,1113.2,1865.25,3.055625,0.765,10.6302,1.6224,15.36299,493.5,5.115,25.4205,16,36.93476,2,10,3,36,0.7,0.47,1.89,0.7,0.38,1.41,0.63,3.6813,3.7,1.536,2.0,0,2,0,3,3,3,751,11.3,2099.9,3575.8,6.10875,0.55,20.5396,2.3408,30.67402,41,0.39,50.981,23,50.9415,4,15,7,82,1.35,1.22,2.43,1.35,0.68,3.04,2.85,6.8834,7.3,3.066,5.0,5,5,2,3,3,5,1402,12.4,2163.15,3653.15,6.11,1.04,20.9,2.7928,30.7,514,5.31,50.911,7,14.00674,2,5,4,46,0.65,0.75,0.54,0.65,0.3,1.63,2.22,3.2021,3.6,1.53,3.0,5,3,2,0,0,2,651,1.1,63.25,77.35,0.00125,0.49,0.3604,0.452,0.02598,473,4.92,-0.07,2
649,649,NbO,g,-312.4824,286.636,31.481,24.5,54.45289,3.5,10.5,5.5,67.0,1.025,1.035,1.6125,1.025,0.995,2.52,2.675,5.9363,5.77,2.51,2.5,5.5,4.5,1.5,2.0,2.0,3.5,983.0,8.2465,1397.95,2552.65,4.285715,0.59,13.3113,342.705,26.86337,487.5,5.095,114.746,33,76.90698,3,11,3,40,0.85,0.61,2.295,0.85,0.43,1.84,1.29,4.868,3.54,2.2,5.0,1,3,1,4,4,5,662,14.907,2686.4,4925.0,8.56857,0.66,26.17741,678.5901,53.67326,477,4.95,52.4591,41,92.90638,5,16,7,87,1.45,1.34,2.76,1.45,1.21,3.44,3.32,8.3703,7.54,3.61,5.0,6,6,2,4,4,6,1314,15.7,2741.15,5015.15,8.57,0.92,26.4,682.0,53.7,726,7.57,140.976,8,15.9994,2,5,4,47,0.6,0.73,0.465,0.6,0.78,1.6,2.03,3.5023,4.0,1.41,0.0,5,3,1,0,0,1,652,0.793,54.75,90.15,0.00143,0.26,0.22259,3.4099,0.02674,249,2.62,88.5169,2
660,660,OTa,g,-315.0432,289.161,31.95,40.5,98.47365,4.0,10.5,5.5,67.5,1.025,1.035,1.6275,1.025,0.995,2.47,2.63,7.47205,5.825,2.475,2.5,5.5,4.5,2.0,2.0,1.5,4.0,1037.5,6.9465,1661.95,2894.15,8.300715,0.53,15.9113,373.205,28.76337,515.5,5.36,85.988,65,164.9485,4,11,3,39,0.85,0.61,2.325,0.85,0.43,1.94,1.38,1.7965,3.43,2.27,5.0,1,3,0,4,3,4,553,12.307,3214.4,5608.0,16.59857,0.78,31.37741,739.5901,57.47326,533,5.48,109.976,73,180.9479,6,16,7,87,1.45,1.34,2.79,1.45,1.21,3.44,3.32,8.3703,7.54,3.61,5.0,6,6,2,4,3,6,1314,13.1,3269.15,5698.15,16.6,0.92,31.6,743.0,57.5,782,8.1,140.976,8,15.9994,2,5,4,48,0.6,0.73,0.465,0.6,0.78,1.5,1.94,6.5738,4.11,1.34,0.0,5,3,2,0,0,2,761,0.793,54.75,90.15,0.00143,0.14,0.22259,3.4099,0.02674,249,2.62,31.0,2
672,672,O2Zr,g,-367.9284,347.074,48.56,18.6667,41.0743,3.0,12.0,6.0,72.6667,0.916667,0.97,1.25167,0.916667,1.09333,2.73667,2.78,6.7309,6.24,2.84667,1.33333,5.33333,4.66667,2.0,2.66667,0.666667,4.66667,1089.33,6.49533,744.883,1610.15,2.17095,0.703333,5.78173,21.6733,7.58449,369.0,3.83,107.921,32,75.2246,3,12,3,43,0.95,0.72,2.36,0.95,0.35,2.11,1.62,4.9182,3.9,2.29,4.0,2,4,0,4,2,4,674,17.107,2070.4,4560.0,6.50857,0.65,16.67741,54.7901,22.67326,360,3.63,99.166,40,91.224,5,16,7,87,1.55,1.45,2.825,1.55,1.21,3.44,3.32,8.3703,7.54,3.61,4.0,6,6,2,4,2,6,1314,17.9,2125.15,4650.15,6.51,0.92,16.9,58.2,22.7,609,6.25,140.976,8,15.9994,2,4,4,44,0.6,0.73,0.465,0.6,0.86,1.33,1.7,3.4521,3.64,1.32,0.0,4,2,2,0,0,2,640,0.793,54.75,90.15,0.00143,0.27,0.22259,3.4099,0.02674,249,2.62,41.81,3
683,683,P,g,-211.824,192.142,18.746,15.0,30.9738,3.0,15.0,7.0,83.0,1.0,1.06,1.24,1.0,0.31,2.19,2.32,4.9591,5.62,2.253,3.0,5.0,5.0,2.0,3.0,0.0,5.0,1012.0,3.6,317.25,553.15,1.82,0.77,0.657,12.129,0.235,315.0,3.43,72.037,0,0.0,0,0,0,0,0.0,0.0,0.0,0.0,0.0,0.0,0.0,0.0,0.0,0.0,0.0,0,0,0,0,0,0,0,0.0,0.0,0.0,0.0,0.0,0.0,0.0,0.0,0,0.0,0.0,15,30.9738,3,15,7,83,1.0,1.06,1.24,1.0,0.31,2.19,2.32,4.9591,5.62,2.253,3.0,5,5,2,3,0,5,1012,3.6,317.25,553.15,1.82,0.77,0.657,12.129,0.235,315,3.43,72.037,15,30.9738,3,15,7,83,1.0,1.06,1.24,1.0,0.31,2.19,2.32,4.9591,5.62,2.253,3.0,5,5,2,3,0,5,1012,3.6,317.25,553.15,1.82,0.77,0.657,12.129,0.235,315,3.43,72.037,1
694,694,SSr,g,-319.932,294.634,33.629,27.0,59.843,4.0,9.0,4.5,48.0,1.5,1.465,2.155,1.5,0.875,1.765,1.89,4.6023,4.11,1.776,2.0,4.0,4.0,2.0,2.0,0.0,4.0,774.5,15.25,714.05,1187.5,2.305,0.505,5.00875,76.9,17.7845,221.5,2.285,102.717,22,55.554,2,14,5,80,1.0,0.89,2.11,1.0,0.89,1.63,1.52,2.487,4.22,1.626,0.0,4,4,0,4,0,4,451,24.7,656.2,939.3,0.47,0.41,6.5825,134.2,35.031,115,1.13,195.3871,38,87.62,5,16,7,88,2.0,1.91,3.21,2.0,1.32,2.58,2.65,5.8458,6.22,2.589,2.0,6,6,2,4,0,6,1000,27.6,1042.15,1657.15,2.54,0.71,8.3,144.0,35.3,279,2.85,200.4101,16,32.066,3,2,2,8,1.0,1.02,1.1,1.0,0.43,0.95,1.13,3.3588,2.0,0.963,2.0,2,2,2,0,0,2,549,2.9,385.95,717.85,2.07,0.3,1.7175,9.8,0.269,164,1.72,5.023,2
705,705,Zr,g,-238.7112,217.523,22.317,40.0,91.224,5.0,4.0,4.0,44.0,1.55,1.45,2.825,1.55,0.86,1.33,1.7,3.4521,3.64,1.32,4.0,4.0,2.0,2.0,0.0,2.0,2.0,640.0,17.9,2125.15,4650.15,6.51,0.27,16.9,58.2,22.7,609.0,6.25,41.81,0,0.0,0,0,0,0,0.0,0.0,0.0,0.0,0.0,0.0,0.0,0.0,0.0,0.0,0.0,0,0,0,0,0,0,0,0.0,0.0,0.0,0.0,0.0,0.0,0.0,0.0,0,0.0,0.0,40,91.224,5,4,4,44,1.55,1.45,2.825,1.55,0.86,1.33,1.7,3.4521,3.64,1.32,4.0,4,2,2,0,2,2,640,17.9,2125.15,4650.15,6.51,0.27,16.9,58.2,22.7,609,6.25,41.81,40,91.224,5,4,4,44,1.55,1.45,2.825,1.55,0.86,1.33,1.7,3.4521,3.64,1.32,4.0,4,2,2,0,2,2,640,17.9,2125.15,4650.15,6.51,0.27,16.9,58.2,22.7,609,6.25,41.81,1